{
  "resourceType" : "DocumentReference",
  "contained" : [
    {
      "resourceType": "Practitioner",
      "id": "id_1",
      "name": [
        {
          "family": "Smitty",
          "given": [
            "Gerald"
          ]
        }
      ]
    },
	{
      "resourceType": "Practitioner",
      "id": "id_2",
      "name": [
        {
          "family": "Dopplemeyer",
          "given": [
            "Sherry"
          ]
        }
      ]
    },
    {
      "resourceType": "Patient",
      "id": "89765a87b^^^&amp;1.2.3.4.5&amp;ISO",
      "identifier": [
    {      
      "system": "urn:oid:1.2.3",
      "value": "pid1"      
	    }
	  ],
      "name": [
        {
          "family": "Doe",
          "given": [
            "John"
          ]
        }
      ],
      "gender": "male",
      "birthDate": "1957-05-27",
      "address": [
    	{
      "use": "",
      "type": "",
      "text": "100 Main St^^Metropolis^Il^44130^USA", 
      "line": [
        "100 Main St"
      ],
      "city": "Metropolis",
      "district": "",
      "state": "Illinois",
      "postalCode": "44130"      
       }
       ]
    },
    {
	  "resourceType" : "Organization",	  
	  "id" : "id_1",	  
	  "name" : "Cleveland Clinic"	  
	},
	{
	  "resourceType" : "Organization",	  
	  "id" : "id_1",	  
	  "name" : "Parma Community"	  
	},
	{
	  "resourceType" : "PractitionerRole",	 
	  "id" : "id_1",	  
	  "code" : [
		    {
		      "coding": [
		        {
		          "system": "",
		          "code": "",
		          "display": "Attending"
		        }
		      ]
		    }
		  ],
	  "specialty" : [
	    {
	      "coding": [
	        {
	          "system": "",
	          "code": "",
	          "display": "Orthopedic"
	        }
	      ]
	    }
	  ]	  
	},
	{
	  "resourceType" : "Organization",	  
	  "id" : "id_2",	  
	  "name" : "Cleveland Clinic"	  
	},
	{
	  "resourceType" : "Organization",	  
	  "id" : "id_2",	  
	  "name" : "Berea Community"	  
	},
	{
	  "resourceType" : "PractitionerRole",	 
	  "id" : "id_2",	  
	  "code" : [
		    {
		      "coding": [
		        {
		          "system": "",
		          "code": "",
		          "display": "Primary Surgon"
		        }
		      ]
		    }
		  ],
	  "specialty" : [
	    {
	      "coding": [
	        {
	          "system": "",
	          "code": "",
	          "display": "Orthopedic"
	        }
	      ]
	    }
	  ]	  
	}
  ], 	
  "masterIdentifier" : {
    "system": "",
    "value": "1.2.42.20210907154740.2"
  },  
  "identifier" :[
    {
      "system": "",
      "value": "urn:uuid:31ae780c-7fd7-4a38-826b-f428b9f8975c"
    }
  ], 
  "status" : "current",
  "docStatus" : "",
  "type" : { 
    "coding": [
      {
        "system": "2.16.840.1.113883.6.1",
        "code": "11502-2",
        "display": "LABORATORY REPORT.TOTAL"
      }
    ] },
  "category" : [{  
	"coding": [
        {
          "system": "1.3.6.1.4.1.19376.1.2.6.1",
          "code": "PLANS",
          "display": "Treatment Plan or Protocol"
        }
      ] }],
  "subject" : { 
	"reference": "Patient/IHEBLUE-2737^^^&amp;1.3.6.1.4.1.21367.13.20.3000&amp;ISO"
	}, 
  "date" : "",
  "author" : [{
      "reference": "#id_1"
    },
	{
      "reference": "#id_2"
    }], 
  "authenticator" : {}, 
  "custodian" : {}, 
  "relatesTo" : [{ 
    "code" : "<code>",
    "target" : {  }
  }],
  "description" : "",
  "securityLabel" : [{ 
  	"coding": [
        {
          "system": "2.16.840.1.113883.5.25",
          "code": "R",
          "display": "Restricted"
        }
      ]
	  }], 
  "content" : [{
    "attachment" : { 
		  "contentType" : "application/pdf", 
		  "language" : "en-us", 
		  "data" : "", 
		  "url" : "", 
		  "size" : "", 
		  "hash" : "",
		  "title" : "DocA",
		  "creation" : "20061224" 
  }, 
    "format" : { 
		"system": "1.3.6.1.4.1.19376.1.2.3",
        "code": "urn:ihe:iti:bppc:2007",
        "display": "urn:ihe:iti:bppc:2007"
		} 
  }],
  "context" : { 
    "encounter" : [{}], 
    "event" : [{ 
		"coding": [
          {
            "system": "1.3.6.1.4.1.21367.2017.3",
            "code": "urn:connectathon:bppc:foundational:policy",
            "display": "Foundational Connectathon Read-Access Policy"
          }
        ] }],
    "period" : { 
		"start": "200612230800",
        "end": "200612230800"
	 },
    "facilityType" : { 
		"coding": [
        {
          "system": "2.16.840.1.113883.6.96",
          "code": "66280005",
          "display": "Private home-based care"
        }
      ]
	 },
    "practiceSetting" : { 
    	"coding": [
        {
          "system": "1.3.6.1.4.1.21367.2017.3",
          "code": "Practice-D",
          "display": "Pathology"
        }
      ] }, 
    "sourcePatientInfo" : { 
		"reference" : "#89765a87b^^^&amp;1.2.3.4.5&amp;ISO"
	}, 
    "related" : [{ }] 
  }
}